{
    "resourceType": "Bundle",
    "type": "transaction",
    "entry": [
        {
            "resource": {
                "resourceType": "Observation",
                "status": "final",
                "code": {
                    "text": "Key population member"
                },
                "subject": {
                    "reference": "Patient/3e3dde72-b235-4c4a-bead-b860257ae5ea"
                },
                "valueString": "PWUD"
            },
            "request": {
                "method": "PUT",
                "url": "Observation"
            }
        },
        {
            "resource": {
                "resourceType": "ServiceRequest",
                "id": "dd37fa94-0a38-4a9e-9be6-2ccc6eaab9b3",
                "status": "active",
                "intent": "order",
                "code": {
                    "concept": {
                        "coding": [
                            {
                                "system": "http://snomed.info/sct",
                                "code": "31676001",
                                "display": "HIV Antigen test"
                            }
                        ]
                    }
                },
                "subject": {
                    "reference": "Patient/3e3dde72-b235-4c4a-bead-b860257ae5ea"
                }
            },
            "request": {
                "method": "PUT",
                "url": "ServiceRequest"
            }
        },
        {
            "resource": {
                "resourceType": "DiagnosticReport",
                "id": "c7dd557c-9cd2-424f-b110-6f49f6b1cbd0",
                "basedOn": [
                    {
                        "reference": "ServiceRequest/dd37fa94-0a38-4a9e-9be6-2ccc6eaab9b3"
                    }
                ],
                "status": "final",
                "code": {
                    "coding": [
                        {
                            "system": "http://snomed.info/sct",
                            "code": "31676001",
                            "display": "HIV Antigen test"
                        }
                    ]
                },
                "subject": {
                    "reference": "Patient/3e3dde72-b235-4c4a-bead-b860257ae5ea"
                },
                "result": [
                    {
                        "reference": "Observation/ca5f0262-74eb-456c-b48b-8570f599b1a2"
                    }
                ]
            },
            "request": {
                "method": "PUT",
                "url": "DiagnosticReport"
            }
        },
        {
            "resource": {
                "resourceType": "Observation",
                "id": "ca5f0262-74eb-456c-b48b-8570f599b1a2",
                "status": "final",
                "code": {
                    "coding": [
                        {
                            "system": "http://snomed.info/sct",
                            "code": "31676001",
                            "display": "HIV Antigen test"
                        }
                    ]
                },
                "subject": {
                    "reference": "Patient/3e3dde72-b235-4c4a-bead-b860257ae5ea"
                },
                "valueCodeableConcept": {
                    "coding": [
                        {
                            "code": "1234567",
                            "display": "Unrelated"
                        }
                    ]
                }
            },
            "request": {
                "method": "PUT",
                "url": "Observation"
            }
        }
    ]
}