{
    "resourceType": "Bundle",
    "type": "transaction",
    "entry": [
        {
            "resource": {
                "resourceType": "Observation",
                "status": "final",
                "code": {
                    "text": "Key population member"
                },
                "subject": {
                    "reference": "Patient/3c792069-6eab-4f60-83c8-d0871e59e280"
                },
                "valueString": "PWUD"
            },
            "request": {
                "method": "PUT",
                "url": "Observation"
            }
        },
        {
            "resource": {
                "resourceType": "ServiceRequest",
                "id": "ec781b5c-a9f1-4ff0-9169-04c915c5aec0",
                "status": "active",
                "intent": "order",
                "code": {
                    "concept": {
                        "coding": [
                            {
                                "system": "http://snomed.info/sct",
                                "code": "31676001",
                                "display": "HIV Antigen test"
                            }
                        ]
                    }
                },
                "subject": {
                    "reference": "Patient/3c792069-6eab-4f60-83c8-d0871e59e280"
                }
            },
            "request": {
                "method": "PUT",
                "url": "ServiceRequest"
            }
        },
        {
            "resource": {
                "resourceType": "DiagnosticReport",
                "id": "3ea336d4-aa2b-4fcc-ba07-850496b36a58",
                "basedOn": [
                    {
                        "reference": "ServiceRequest/ec781b5c-a9f1-4ff0-9169-04c915c5aec0"
                    }
                ],
                "status": "final",
                "code": {
                    "coding": [
                        {
                            "system": "http://snomed.info/sct",
                            "code": "31676001",
                            "display": "HIV Antigen test"
                        }
                    ]
                },
                "subject": {
                    "reference": "Patient/3c792069-6eab-4f60-83c8-d0871e59e280"
                },
                "result": [
                    {
                        "reference": "Observation/d762bc7f-7335-4583-bbc8-d6e0b1533de4"
                    }
                ]
            },
            "request": {
                "method": "PUT",
                "url": "DiagnosticReport"
            }
        },
        {
            "resource": {
                "resourceType": "Observation",
                "id": "d762bc7f-7335-4583-bbc8-d6e0b1533de4",
                "status": "final",
                "code": {
                    "coding": [
                        {
                            "system": "http://snomed.info/sct",
                            "code": "31676001",
                            "display": "HIV Antigen test"
                        }
                    ]
                },
                "subject": {
                    "reference": "Patient/3c792069-6eab-4f60-83c8-d0871e59e280"
                },
                "valueCodeableConcept": {
                    "coding": [
                        {
                            "system": "http://snomed.info/sct",
                            "code": "165815009",
                            "display": "HIV Negative"
                        }
                    ]
                }
            },
            "request": {
                "method": "PUT",
                "url": "Observation"
            }
        }
    ]
}