{
    "resourceType": "Bundle",
    "type": "transaction",
    "entry": [
        {
            "resource": {
                "resourceType": "Observation",
                "status": "final",
                "code": {
                    "text": "Key population member"
                },
                "subject": {
                    "reference": "Patient/3aec2e9e-7797-40a0-b56e-df21cf6c1f62"
                },
                "valueString": "MSM"
            },
            "request": {
                "method": "PUT",
                "url": "Observation"
            }
        },
        {
            "resource": {
                "resourceType": "Condition",
                "clinicalStatus": {
                    "coding": [
                        {
                            "system": "http://terminology.hl7.org/CodeSystem/condition-clinical",
                            "code": "active",
                            "display": "Active"
                        }
                    ]
                },
                "verificationStatus": {
                    "coding": [
                        {
                            "system": "http://terminology.hl7.org/CodeSystem/condition-ver-status",
                            "code": "confirmed"
                        }
                    ]
                },
                "code": {
                    "coding": [
                        {
                            "system": "http://snomed.info/sct",
                            "code": "86406008",
                            "display": "Human immunodeficiency virus infection"
                        }
                    ]
                },
                "subject": {
                    "reference": "Patient/3aec2e9e-7797-40a0-b56e-df21cf6c1f62"
                },
                "onsetDateTime": "2024-05-26T20:25:27.270942+00:00"
            },
            "request": {
                "method": "PUT",
                "url": "Condition"
            }
        },
        {
            "resource": {
                "resourceType": "ServiceRequest",
                "id": "64f2856d-a465-4ccf-84c9-ab71a7316990",
                "status": "active",
                "intent": "order",
                "code": {
                    "concept": {
                        "coding": [
                            {
                                "system": "http://snomed.info/sct",
                                "code": "31676001",
                                "display": "HIV Antigen test"
                            }
                        ]
                    }
                },
                "subject": {
                    "reference": "Patient/3aec2e9e-7797-40a0-b56e-df21cf6c1f62"
                }
            },
            "request": {
                "method": "PUT",
                "url": "ServiceRequest"
            }
        },
        {
            "resource": {
                "resourceType": "DiagnosticReport",
                "id": "56a85f71-8911-41d8-af39-8cb1f43397df",
                "basedOn": [
                    {
                        "reference": "ServiceRequest/64f2856d-a465-4ccf-84c9-ab71a7316990"
                    }
                ],
                "status": "final",
                "code": {
                    "coding": [
                        {
                            "system": "http://snomed.info/sct",
                            "code": "31676001",
                            "display": "HIV Antigen test"
                        }
                    ]
                },
                "subject": {
                    "reference": "Patient/3aec2e9e-7797-40a0-b56e-df21cf6c1f62"
                },
                "result": [
                    {
                        "reference": "Observation/db9dfa05-386f-4a07-9583-40860541b213"
                    }
                ]
            },
            "request": {
                "method": "PUT",
                "url": "DiagnosticReport"
            }
        },
        {
            "resource": {
                "resourceType": "Observation",
                "id": "db9dfa05-386f-4a07-9583-40860541b213",
                "status": "final",
                "code": {
                    "coding": [
                        {
                            "system": "http://snomed.info/sct",
                            "code": "31676001",
                            "display": "HIV Antigen test"
                        }
                    ]
                },
                "subject": {
                    "reference": "Patient/3aec2e9e-7797-40a0-b56e-df21cf6c1f62"
                },
                "valueCodeableConcept": {
                    "coding": [
                        {
                            "system": "http://snomed.info/sct",
                            "code": "165815009",
                            "display": "HIV Negative"
                        }
                    ]
                }
            },
            "request": {
                "method": "PUT",
                "url": "Observation"
            }
        }
    ]
}