{
    "resourceType": "Bundle",
    "type": "transaction",
    "entry": [
        {
            "resource": {
                "resourceType": "Observation",
                "status": "final",
                "code": {
                    "text": "Key population member"
                },
                "subject": {
                    "reference": "Patient/fe0c5612-c881-4dde-958b-1e03a453a01f"
                },
                "valueString": "PWID"
            },
            "request": {
                "method": "PUT",
                "url": "Observation"
            }
        },
        {
            "resource": {
                "resourceType": "Condition",
                "clinicalStatus": {
                    "coding": [
                        {
                            "system": "http://terminology.hl7.org/CodeSystem/condition-clinical",
                            "code": "active",
                            "display": "Active"
                        }
                    ]
                },
                "verificationStatus": {
                    "coding": [
                        {
                            "system": "http://terminology.hl7.org/CodeSystem/condition-ver-status",
                            "code": "confirmed"
                        }
                    ]
                },
                "code": {
                    "coding": [
                        {
                            "system": "http://snomed.info/sct",
                            "code": "86406008",
                            "display": "Human immunodeficiency virus infection"
                        }
                    ]
                },
                "subject": {
                    "reference": "Patient/fe0c5612-c881-4dde-958b-1e03a453a01f"
                },
                "onsetDateTime": "2024-05-28T20:25:27.270942+00:00"
            },
            "request": {
                "method": "PUT",
                "url": "Condition"
            }
        },
        {
            "resource": {
                "resourceType": "ServiceRequest",
                "id": "cb39de93-45cb-42c4-9283-a4a78bf064e8",
                "status": "active",
                "intent": "order",
                "code": {
                    "concept": {
                        "coding": [
                            {
                                "system": "http://snomed.info/sct",
                                "code": "31676001",
                                "display": "HIV Antigen test"
                            }
                        ]
                    }
                },
                "subject": {
                    "reference": "Patient/fe0c5612-c881-4dde-958b-1e03a453a01f"
                }
            },
            "request": {
                "method": "PUT",
                "url": "ServiceRequest"
            }
        },
        {
            "resource": {
                "resourceType": "DiagnosticReport",
                "id": "53ad6d9b-b3f3-4914-a6ec-8179bb8e79bc",
                "basedOn": [
                    {
                        "reference": "ServiceRequest/cb39de93-45cb-42c4-9283-a4a78bf064e8"
                    }
                ],
                "status": "final",
                "code": {
                    "coding": [
                        {
                            "system": "http://snomed.info/sct",
                            "code": "31676001",
                            "display": "HIV Antigen test"
                        }
                    ]
                },
                "subject": {
                    "reference": "Patient/fe0c5612-c881-4dde-958b-1e03a453a01f"
                },
                "result": [
                    {
                        "reference": "Observation/eda24562-b5a8-4966-b24c-e2cfd025e845"
                    }
                ]
            },
            "request": {
                "method": "PUT",
                "url": "DiagnosticReport"
            }
        },
        {
            "resource": {
                "resourceType": "Observation",
                "id": "eda24562-b5a8-4966-b24c-e2cfd025e845",
                "status": "final",
                "code": {
                    "coding": [
                        {
                            "system": "http://snomed.info/sct",
                            "code": "31676001",
                            "display": "HIV Antigen test"
                        }
                    ]
                },
                "subject": {
                    "reference": "Patient/fe0c5612-c881-4dde-958b-1e03a453a01f"
                },
                "valueCodeableConcept": {
                    "coding": [
                        {
                            "system": "http://snomed.info/sct",
                            "code": "165815009",
                            "display": "HIV Negative"
                        }
                    ]
                }
            },
            "request": {
                "method": "PUT",
                "url": "Observation"
            }
        }
    ]
}