{
    "resourceType": "Bundle",
    "type": "transaction",
    "entry": [
        {
            "resource": {
                "resourceType": "Observation",
                "status": "final",
                "code": {
                    "text": "Key population member"
                },
                "subject": {
                    "reference": "Patient/3c0d98be-f80f-40f8-9311-32cad86aa7c9"
                },
                "valueString": "FSW"
            },
            "request": {
                "method": "PUT",
                "url": "Observation"
            }
        },
        {
            "resource": {
                "resourceType": "Condition",
                "clinicalStatus": {
                    "coding": [
                        {
                            "system": "http://terminology.hl7.org/CodeSystem/condition-clinical",
                            "code": "active",
                            "display": "Active"
                        }
                    ]
                },
                "verificationStatus": {
                    "coding": [
                        {
                            "system": "http://terminology.hl7.org/CodeSystem/condition-ver-status",
                            "code": "confirmed"
                        }
                    ]
                },
                "code": {
                    "coding": [
                        {
                            "system": "http://snomed.info/sct",
                            "code": "56717001",
                            "display": "Diagnosed TB"
                        }
                    ]
                },
                "subject": {
                    "reference": "Patient/3c0d98be-f80f-40f8-9311-32cad86aa7c9"
                },
                "onsetDateTime": "2023-07-25T20:25:27.270942+00:00"
            },
            "request": {
                "method": "PUT",
                "url": "Condition"
            }
        },
        {
            "resource": {
                "resourceType": "ServiceRequest",
                "id": "6cda43ad-dbd6-4e8c-92a8-82f5b997a16f",
                "status": "active",
                "intent": "order",
                "code": {
                    "concept": {
                        "coding": [
                            {
                                "system": "http://snomed.info/sct",
                                "code": "31676001",
                                "display": "HIV Antigen test"
                            }
                        ]
                    }
                },
                "subject": {
                    "reference": "Patient/3c0d98be-f80f-40f8-9311-32cad86aa7c9"
                }
            },
            "request": {
                "method": "PUT",
                "url": "ServiceRequest"
            }
        },
        {
            "resource": {
                "resourceType": "DiagnosticReport",
                "id": "64c0a197-c133-4926-aaef-7691e75fcca5",
                "basedOn": [
                    {
                        "reference": "ServiceRequest/6cda43ad-dbd6-4e8c-92a8-82f5b997a16f"
                    }
                ],
                "status": "final",
                "code": {
                    "coding": [
                        {
                            "system": "http://snomed.info/sct",
                            "code": "31676001",
                            "display": "HIV Antigen test"
                        }
                    ]
                },
                "subject": {
                    "reference": "Patient/3c0d98be-f80f-40f8-9311-32cad86aa7c9"
                },
                "result": [
                    {
                        "reference": "Observation/bb4d5809-78e3-4d1c-b8d5-c2d01d76a474"
                    }
                ]
            },
            "request": {
                "method": "PUT",
                "url": "DiagnosticReport"
            }
        },
        {
            "resource": {
                "resourceType": "Observation",
                "id": "bb4d5809-78e3-4d1c-b8d5-c2d01d76a474",
                "status": "final",
                "code": {
                    "coding": [
                        {
                            "system": "http://snomed.info/sct",
                            "code": "31676001",
                            "display": "HIV Antigen test"
                        }
                    ]
                },
                "subject": {
                    "reference": "Patient/3c0d98be-f80f-40f8-9311-32cad86aa7c9"
                },
                "valueCodeableConcept": {
                    "coding": [
                        {
                            "system": "http://snomed.info/sct",
                            "code": "419984006",
                            "display": "Inconclusive"
                        }
                    ]
                }
            },
            "request": {
                "method": "PUT",
                "url": "Observation"
            }
        }
    ]
}