{
    "resourceType": "Bundle",
    "type": "transaction",
    "entry": [
        {
            "resource": {
                "resourceType": "Observation",
                "status": "final",
                "code": {
                    "text": "Key population member"
                },
                "subject": {
                    "reference": "Patient/9d60c090-ea89-4995-be3b-5afd2ff1017b"
                },
                "valueString": "TG"
            },
            "request": {
                "method": "PUT",
                "url": "Observation"
            }
        },
        {
            "resource": {
                "resourceType": "ServiceRequest",
                "id": "45a4fe7f-c957-48b3-82c7-4f81406f66f6",
                "status": "active",
                "intent": "order",
                "code": {
                    "concept": {
                        "coding": [
                            {
                                "system": "http://snomed.info/sct",
                                "code": "31676001",
                                "display": "HIV Antigen test"
                            }
                        ]
                    }
                },
                "subject": {
                    "reference": "Patient/9d60c090-ea89-4995-be3b-5afd2ff1017b"
                }
            },
            "request": {
                "method": "PUT",
                "url": "ServiceRequest"
            }
        },
        {
            "resource": {
                "resourceType": "DiagnosticReport",
                "id": "1d518f13-151f-4509-b601-7ab4d801ee62",
                "basedOn": [
                    {
                        "reference": "ServiceRequest/45a4fe7f-c957-48b3-82c7-4f81406f66f6"
                    }
                ],
                "status": "final",
                "code": {
                    "coding": [
                        {
                            "system": "http://snomed.info/sct",
                            "code": "31676001",
                            "display": "HIV Antigen test"
                        }
                    ]
                },
                "subject": {
                    "reference": "Patient/9d60c090-ea89-4995-be3b-5afd2ff1017b"
                },
                "result": [
                    {
                        "reference": "Observation/cc4620cd-4d73-43b7-8f99-42d759bfa184"
                    }
                ]
            },
            "request": {
                "method": "PUT",
                "url": "DiagnosticReport"
            }
        },
        {
            "resource": {
                "resourceType": "Observation",
                "id": "cc4620cd-4d73-43b7-8f99-42d759bfa184",
                "status": "final",
                "code": {
                    "coding": [
                        {
                            "system": "http://snomed.info/sct",
                            "code": "31676001",
                            "display": "HIV Antigen test"
                        }
                    ]
                },
                "subject": {
                    "reference": "Patient/9d60c090-ea89-4995-be3b-5afd2ff1017b"
                },
                "valueCodeableConcept": {
                    "coding": [
                        {
                            "system": "http://snomed.info/sct",
                            "code": "419984006",
                            "display": "Inconclusive"
                        }
                    ]
                }
            },
            "request": {
                "method": "PUT",
                "url": "Observation"
            }
        }
    ]
}