{
    "resourceType": "Bundle",
    "type": "transaction",
    "entry": [
        {
            "resource": {
                "resourceType": "Observation",
                "status": "final",
                "code": {
                    "text": "Key population member"
                },
                "subject": {
                    "reference": "Patient/64736782-b68c-4ad8-a7c6-9bce4ad3243a"
                },
                "valueString": "PWID"
            },
            "request": {
                "method": "PUT",
                "url": "Observation"
            }
        },
        {
            "resource": {
                "resourceType": "Condition",
                "clinicalStatus": {
                    "coding": [
                        {
                            "system": "http://terminology.hl7.org/CodeSystem/condition-clinical",
                            "code": "active",
                            "display": "Active"
                        }
                    ]
                },
                "verificationStatus": {
                    "coding": [
                        {
                            "system": "http://terminology.hl7.org/CodeSystem/condition-ver-status",
                            "code": "confirmed"
                        }
                    ]
                },
                "code": {
                    "coding": [
                        {
                            "system": "http://snomed.info/sct",
                            "code": "161920001",
                            "display": "Presumptive TB"
                        }
                    ]
                },
                "subject": {
                    "reference": "Patient/64736782-b68c-4ad8-a7c6-9bce4ad3243a"
                },
                "onsetDateTime": "2024-05-31T20:25:27.270942+00:00"
            },
            "request": {
                "method": "PUT",
                "url": "Condition"
            }
        },
        {
            "resource": {
                "resourceType": "ServiceRequest",
                "id": "1040005e-6614-4617-8c68-2ae7e367c0a3",
                "status": "active",
                "intent": "order",
                "code": {
                    "concept": {
                        "coding": [
                            {
                                "system": "http://snomed.info/sct",
                                "code": "31676001",
                                "display": "HIV Antigen test"
                            }
                        ]
                    }
                },
                "subject": {
                    "reference": "Patient/64736782-b68c-4ad8-a7c6-9bce4ad3243a"
                }
            },
            "request": {
                "method": "PUT",
                "url": "ServiceRequest"
            }
        },
        {
            "resource": {
                "resourceType": "DiagnosticReport",
                "id": "b7ec854c-d747-47ef-b3bd-2a434f1654cb",
                "basedOn": [
                    {
                        "reference": "ServiceRequest/1040005e-6614-4617-8c68-2ae7e367c0a3"
                    }
                ],
                "status": "final",
                "code": {
                    "coding": [
                        {
                            "system": "http://snomed.info/sct",
                            "code": "31676001",
                            "display": "HIV Antigen test"
                        }
                    ]
                },
                "subject": {
                    "reference": "Patient/64736782-b68c-4ad8-a7c6-9bce4ad3243a"
                },
                "result": [
                    {
                        "reference": "Observation/60b512a2-28bf-49a0-ab18-75fc95a5e78c"
                    }
                ]
            },
            "request": {
                "method": "PUT",
                "url": "DiagnosticReport"
            }
        },
        {
            "resource": {
                "resourceType": "Observation",
                "id": "60b512a2-28bf-49a0-ab18-75fc95a5e78c",
                "status": "final",
                "code": {
                    "coding": [
                        {
                            "system": "http://snomed.info/sct",
                            "code": "31676001",
                            "display": "HIV Antigen test"
                        }
                    ]
                },
                "subject": {
                    "reference": "Patient/64736782-b68c-4ad8-a7c6-9bce4ad3243a"
                },
                "valueCodeableConcept": {
                    "coding": [
                        {
                            "system": "http://snomed.info/sct",
                            "code": "165815009",
                            "display": "HIV Negative"
                        }
                    ]
                }
            },
            "request": {
                "method": "PUT",
                "url": "Observation"
            }
        }
    ]
}