{
    "resourceType": "Bundle",
    "type": "transaction",
    "entry": [
        {
            "resource": {
                "resourceType": "Observation",
                "status": "final",
                "code": {
                    "text": "Key population member"
                },
                "subject": {
                    "reference": "Patient/a7bd5549-b136-46df-b92f-1301f8b9376e"
                },
                "valueString": "FSW"
            },
            "request": {
                "method": "PUT",
                "url": "Observation"
            }
        },
        {
            "resource": {
                "resourceType": "Condition",
                "clinicalStatus": {
                    "coding": [
                        {
                            "system": "http://terminology.hl7.org/CodeSystem/condition-clinical",
                            "code": "active",
                            "display": "Active"
                        }
                    ]
                },
                "verificationStatus": {
                    "coding": [
                        {
                            "system": "http://terminology.hl7.org/CodeSystem/condition-ver-status",
                            "code": "confirmed"
                        }
                    ]
                },
                "code": {
                    "coding": [
                        {
                            "system": "http://snomed.info/sct",
                            "code": "161920001",
                            "display": "Presumptive TB"
                        }
                    ]
                },
                "subject": {
                    "reference": "Patient/a7bd5549-b136-46df-b92f-1301f8b9376e"
                },
                "onsetDateTime": "2023-12-04T20:25:27.270942+00:00"
            },
            "request": {
                "method": "PUT",
                "url": "Condition"
            }
        },
        {
            "resource": {
                "resourceType": "ServiceRequest",
                "id": "f6b6780d-2470-45b1-bc4f-55489aca5fa1",
                "status": "active",
                "intent": "order",
                "code": {
                    "concept": {
                        "coding": [
                            {
                                "system": "http://snomed.info/sct",
                                "code": "31676001",
                                "display": "HIV Antigen test"
                            }
                        ]
                    }
                },
                "subject": {
                    "reference": "Patient/a7bd5549-b136-46df-b92f-1301f8b9376e"
                }
            },
            "request": {
                "method": "PUT",
                "url": "ServiceRequest"
            }
        },
        {
            "resource": {
                "resourceType": "DiagnosticReport",
                "id": "52eb3609-5b9f-467e-92e6-0198306b3caa",
                "basedOn": [
                    {
                        "reference": "ServiceRequest/f6b6780d-2470-45b1-bc4f-55489aca5fa1"
                    }
                ],
                "status": "final",
                "code": {
                    "coding": [
                        {
                            "system": "http://snomed.info/sct",
                            "code": "31676001",
                            "display": "HIV Antigen test"
                        }
                    ]
                },
                "subject": {
                    "reference": "Patient/a7bd5549-b136-46df-b92f-1301f8b9376e"
                },
                "result": [
                    {
                        "reference": "Observation/79af2907-454f-420f-8677-67fef277e5d6"
                    }
                ]
            },
            "request": {
                "method": "PUT",
                "url": "DiagnosticReport"
            }
        },
        {
            "resource": {
                "resourceType": "Observation",
                "id": "79af2907-454f-420f-8677-67fef277e5d6",
                "status": "final",
                "code": {
                    "coding": [
                        {
                            "system": "http://snomed.info/sct",
                            "code": "31676001",
                            "display": "HIV Antigen test"
                        }
                    ]
                },
                "subject": {
                    "reference": "Patient/a7bd5549-b136-46df-b92f-1301f8b9376e"
                },
                "valueCodeableConcept": {
                    "coding": [
                        {
                            "code": "1234567",
                            "display": "Unrelated"
                        }
                    ]
                }
            },
            "request": {
                "method": "PUT",
                "url": "Observation"
            }
        }
    ]
}