{
    "resourceType": "Bundle",
    "type": "transaction",
    "entry": [
        {
            "resource": {
                "resourceType": "Observation",
                "status": "final",
                "code": {
                    "text": "Key population member"
                },
                "subject": {
                    "reference": "Patient/c551e127-d798-4bab-8651-ca79461064bd"
                },
                "valueString": "TG"
            },
            "request": {
                "method": "PUT",
                "url": "Observation"
            }
        },
        {
            "resource": {
                "resourceType": "Condition",
                "clinicalStatus": {
                    "coding": [
                        {
                            "system": "http://terminology.hl7.org/CodeSystem/condition-clinical",
                            "code": "active",
                            "display": "Active"
                        }
                    ]
                },
                "verificationStatus": {
                    "coding": [
                        {
                            "system": "http://terminology.hl7.org/CodeSystem/condition-ver-status",
                            "code": "confirmed"
                        }
                    ]
                },
                "code": {
                    "coding": [
                        {
                            "system": "http://snomed.info/sct",
                            "code": "86406008",
                            "display": "Human immunodeficiency virus infection"
                        }
                    ]
                },
                "subject": {
                    "reference": "Patient/c551e127-d798-4bab-8651-ca79461064bd"
                },
                "onsetDateTime": "2024-05-30T20:25:27.270942+00:00"
            },
            "request": {
                "method": "PUT",
                "url": "Condition"
            }
        },
        {
            "resource": {
                "resourceType": "ServiceRequest",
                "id": "d9d3b259-7c1f-4117-9f13-6c7947cfb801",
                "status": "active",
                "intent": "order",
                "code": {
                    "concept": {
                        "coding": [
                            {
                                "system": "http://snomed.info/sct",
                                "code": "31676001",
                                "display": "HIV Antigen test"
                            }
                        ]
                    }
                },
                "subject": {
                    "reference": "Patient/c551e127-d798-4bab-8651-ca79461064bd"
                }
            },
            "request": {
                "method": "PUT",
                "url": "ServiceRequest"
            }
        },
        {
            "resource": {
                "resourceType": "DiagnosticReport",
                "id": "53271d56-8f64-4e4e-a2c2-e26067141747",
                "basedOn": [
                    {
                        "reference": "ServiceRequest/d9d3b259-7c1f-4117-9f13-6c7947cfb801"
                    }
                ],
                "status": "final",
                "code": {
                    "coding": [
                        {
                            "system": "http://snomed.info/sct",
                            "code": "31676001",
                            "display": "HIV Antigen test"
                        }
                    ]
                },
                "subject": {
                    "reference": "Patient/c551e127-d798-4bab-8651-ca79461064bd"
                },
                "result": [
                    {
                        "reference": "Observation/0aeeb4ed-b960-45ba-8c15-a4275465d564"
                    }
                ]
            },
            "request": {
                "method": "PUT",
                "url": "DiagnosticReport"
            }
        },
        {
            "resource": {
                "resourceType": "Observation",
                "id": "0aeeb4ed-b960-45ba-8c15-a4275465d564",
                "status": "final",
                "code": {
                    "coding": [
                        {
                            "system": "http://snomed.info/sct",
                            "code": "31676001",
                            "display": "HIV Antigen test"
                        }
                    ]
                },
                "subject": {
                    "reference": "Patient/c551e127-d798-4bab-8651-ca79461064bd"
                },
                "valueCodeableConcept": {
                    "coding": [
                        {
                            "code": "1234567",
                            "display": "Unrelated"
                        }
                    ]
                }
            },
            "request": {
                "method": "PUT",
                "url": "Observation"
            }
        }
    ]
}